heart_rate,rr_interval,spo2,skin_temperature,acc_x,acc_y,acc_z,timestamp
66,0,0,0.0,507,-195,814,2026-03-17T23:07:41.658148
75,0,0,0.0,-60,391,892,2026-03-17T23:07:50.138218
76,0,0,0.0,-69,394,883,2026-03-17T23:07:51.212298
74,0,0,0.0,-53,386,882,2026-03-17T23:07:52.294611
73,0,0,0.0,-67,404,887,2026-03-17T23:07:53.378351
75,0,0,0.0,-63,413,891,2026-03-17T23:07:54.505057
74,0,0,0.0,-68,385,876,2026-03-17T23:07:55.582191
74,0,0,0.0,-61,387,872,2026-03-17T23:07:56.657977
72,0,0,0.0,-70,389,880,2026-03-17T23:07:57.773399
71,0,0,0.0,-68,395,889,2026-03-17T23:07:58.841356
69,0,0,0.0,-58,386,885,2026-03-17T23:08:00.029516
69,0,0,0.0,-62,394,885,2026-03-17T23:08:01.159136
68,0,0,0.0,-63,384,891,2026-03-17T23:08:02.292129
66,0,0,0.0,-63,399,884,2026-03-17T23:08:03.418359
65,0,0,0.0,-142,329,890,2026-03-17T23:08:04.549106
65,0,0,0.0,-8,532,817,2026-03-17T23:08:05.668229
65,0,0,0.0,35,499,839,2026-03-17T23:08:06.790169
66,0,0,0.0,31,497,833,2026-03-17T23:08:07.939776
66,0,0,0.0,20,480,848,2026-03-17T23:08:09.04977
65,0,0,0.0,32,479,848,2026-03-17T23:08:10.177135
65,0,0,0.0,142,458,830,2026-03-17T23:08:11.295372
65,0,0,0.0,365,508,782,2026-03-17T23:08:12.428373
65,0,0,0.0,256,479,883,2026-03-17T23:08:13.557038
65,0,0,0.0,13,553,802,2026-03-17T23:08:14.688865
66,0,0,0.0,305,231,777,2026-03-17T23:08:15.818893
67,0,0,0.0,231,441,831,2026-03-17T23:08:16.929277
67,0,0,0.0,170,450,849,2026-03-17T23:08:18.059279
68,0,0,0.0,148,471,839,2026-03-17T23:08:19.196799
67,0,0,0.0,149,446,847,2026-03-17T23:08:20.30753
70,0,0,0.0,153,432,858,2026-03-17T23:08:21.434239
73,0,0,0.0,132,431,852,2026-03-17T23:08:22.50178
74,0,0,0.0,136,427,856,2026-03-17T23:08:23.70316
75,0,0,0.0,123,427,879,2026-03-17T23:08:24.812253
76,0,0,0.0,126,443,860,2026-03-17T23:08:25.947121
76,0,0,0.0,129,449,854,2026-03-17T23:08:27.070507
76,0,0,0.0,127,444,854,2026-03-17T23:08:28.190151
77,0,0,0.0,140,423,870,2026-03-17T23:08:29.327253
77,0,0,0.0,125,429,864,2026-03-17T23:08:30.437158
77,0,0,0.0,100,432,852,2026-03-17T23:08:31.585915
76,0,0,0.0,112,419,877,2026-03-17T23:08:32.717181
76,0,0,0.0,123,420,871,2026-03-17T23:08:33.819914
77,0,0,0.0,127,410,884,2026-03-17T23:08:34.952164
76,0,0,0.0,118,409,857,2026-03-17T23:08:36.025507
75,0,0,0.0,118,400,830,2026-03-17T23:08:37.114359
75,0,0,0.0,124,380,914,2026-03-17T23:08:38.218197
74,0,0,0.0,100,377,911,2026-03-17T23:08:39.37032
75,0,0,0.0,112,352,896,2026-03-17T23:08:40.474656
76,0,0,0.0,121,338,893,2026-03-17T23:08:41.604277
77,0,0,0.0,115,372,898,2026-03-17T23:08:42.735311
77,0,0,0.0,112,356,893,2026-03-17T23:08:43.854996
78,0,0,0.0,103,359,887,2026-03-17T23:08:44.998248
78,0,0,0.0,102,371,896,2026-03-17T23:08:46.086174
76,0,0,0.0,98,372,890,2026-03-17T23:08:47.256742
75,0,0,0.0,88,371,873,2026-03-17T23:08:48.362055
74,0,0,0.0,86,369,895,2026-03-17T23:08:49.501185
73,0,0,0.0,84,367,892,2026-03-17T23:08:50.635344
72,0,0,0.0,83,365,894,2026-03-17T23:08:51.74862
72,0,0,0.0,90,367,888,2026-03-17T23:08:52.830867
72,0,0,0.0,80,370,890,2026-03-17T23:08:54.005562
72,0,0,0.0,73,375,906,2026-03-17T23:08:55.125849
72,0,0,0.0,77,388,895,2026-03-17T23:08:56.243071
71,0,0,0.0,79,393,882,2026-03-17T23:08:57.379549
71,0,0,0.0,69,396,882,2026-03-17T23:08:58.509603
71,0,0,0.0,63,389,885,2026-03-17T23:08:59.645172
70,0,0,0.0,67,399,884,2026-03-17T23:09:00.763302
69,0,0,0.0,71,400,878,2026-03-17T23:09:01.88415
69,0,0,0.0,103,402,852,2026-03-17T23:09:03.009485
68,0,0,0.0,113,502,820,2026-03-17T23:09:04.151469
68,0,0,0.0,92,484,833,2026-03-17T23:09:05.259256
69,0,0,0.0,702,-332,565,2026-03-17T23:09:06.399372
67,0,0,0.0,648,-246,690,2026-03-17T23:09:07.521985
68,0,0,0.0,644,-356,662,2026-03-17T23:09:08.645752
69,0,0,0.0,645,-334,662,2026-03-17T23:09:09.722823
68,0,0,0.0,690,-325,635,2026-03-17T23:09:10.908088
69,0,0,0.0,869,-248,354,2026-03-17T23:09:12.027334
70,0,0,0.0,617,-479,249,2026-03-17T23:09:13.142064
71,0,0,0.0,697,-633,203,2026-03-17T23:09:14.269126
72,0,0,0.0,706,-715,143,2026-03-17T23:09:15.398757
71,0,0,0.0,717,-671,93,2026-03-17T23:09:16.536292
72,0,0,0.0,700,-696,144,2026-03-17T23:09:17.660095
72,0,0,0.0,671,-650,295,2026-03-17T23:09:18.779187
72,0,0,0.0,686,-660,251,2026-03-17T23:09:19.909848
74,0,0,0.0,700,-668,243,2026-03-17T23:09:21.050228
73,0,0,0.0,692,-652,239,2026-03-17T23:09:22.158266
72,0,0,0.0,682,-693,231,2026-03-17T23:09:23.277429
71,0,0,0.0,5,627,871,2026-03-17T23:09:24.402453
69,0,0,0.0,211,554,763,2026-03-17T23:09:25.529449
69,0,0,0.0,136,547,804,2026-03-17T23:09:26.664122
69,0,0,0.0,107,554,781,2026-03-17T23:09:27.801631
70,0,0,0.0,95,518,825,2026-03-17T23:09:28.919049
72,0,0,0.0,89,514,821,2026-03-17T23:09:30.042397
73,0,0,0.0,77,500,838,2026-03-17T23:09:31.177686
71,0,0,0.0,71,464,856,2026-03-17T23:09:32.29674
70,0,0,0.0,71,478,830,2026-03-17T23:09:33.419065
69,0,0,0.0,55,452,835,2026-03-17T23:09:34.544014
69,0,0,0.0,-49,376,972,2026-03-17T23:09:35.672005
68,0,0,0.0,48,149,960,2026-03-17T23:09:36.815248
68,0,0,0.0,36,166,949,2026-03-17T23:09:37.923975
68,0,0,0.0,37,186,953,2026-03-17T23:09:39.068687
68,0,0,0.0,44,246,933,2026-03-17T23:09:40.179934
69,0,0,0.0,487,-488,678,2026-03-17T23:09:41.323099
71,0,0,0.0,501,-577,605,2026-03-17T23:09:42.43498
72,0,0,0.0,506,-616,577,2026-03-17T23:09:43.564664
73,0,0,0.0,504,-588,602,2026-03-17T23:09:44.689279
73,0,0,0.0,494,-534,650,2026-03-17T23:09:45.767391
73,0,0,0.0,498,-517,646,2026-03-17T23:09:46.937615
73,0,0,0.0,487,-549,656,2026-03-17T23:09:48.062884
72,0,0,0.0,496,-580,660,2026-03-17T23:09:49.195343
72,0,0,0.0,493,-527,652,2026-03-17T23:09:50.315651
69,0,0,0.0,496,-508,666,2026-03-17T23:09:51.457742
68,0,0,0.0,434,-430,796,2026-03-17T23:09:52.569376
67,0,0,0.0,484,-207,820,2026-03-17T23:09:53.698523
66,0,0,0.0,465,-430,735,2026-03-17T23:09:54.820357
67,0,0,0.0,474,-431,750,2026-03-17T23:09:55.94934
66,0,0,0.0,478,-430,737,2026-03-17T23:09:57.078281
63,0,0,0.0,475,-421,743,2026-03-17T23:09:58.209372
64,0,0,0.0,473,-421,744,2026-03-17T23:09:59.344314
66,0,0,0.0,476,-422,739,2026-03-17T23:10:00.476731
65,0,0,0.0,473,-431,742,2026-03-17T23:10:01.592668
64,0,0,0.0,449,-551,672,2026-03-17T23:10:02.687185
63,0,0,0.0,507,-650,589,2026-03-17T23:10:03.831535
64,0,0,0.0,467,-629,580,2026-03-17T23:10:04.899245
64,0,0,0.0,463,-816,377,2026-03-17T23:10:05.982642
65,0,0,0.0,467,-757,496,2026-03-17T23:10:07.123373
66,0,0,0.0,461,-622,572,2026-03-17T23:10:08.240664
68,0,0,0.0,444,-703,535,2026-03-17T23:10:09.359024
69,0,0,0.0,472,-704,507,2026-03-17T23:10:10.494513
71,0,0,0.0,458,-724,545,2026-03-17T23:10:11.625427
74,0,0,0.0,475,-666,527,2026-03-17T23:10:12.746337
77,0,0,0.0,470,-143,783,2026-03-17T23:10:13.867689
76,0,0,0.0,500,-586,577,2026-03-17T23:10:15.003464
78,0,0,0.0,504,-617,559,2026-03-17T23:10:16.129792
76,0,0,0.0,502,-624,564,2026-03-17T23:10:17.247473
75,0,0,0.0,512,-636,586,2026-03-17T23:10:18.383344
73,0,0,0.0,474,-606,637,2026-03-17T23:10:19.503897
72,0,0,0.0,466,-572,589,2026-03-17T23:10:20.623679
74,0,0,0.0,492,-622,547,2026-03-17T23:10:21.752665
75,0,0,0.0,483,-627,581,2026-03-17T23:10:22.878532
78,0,0,0.0,491,-651,553,2026-03-17T23:10:24.00263
78,0,0,0.0,492,-651,545,2026-03-17T23:10:25.131111
76,0,0,0.0,486,-639,548,2026-03-17T23:10:26.267199
76,0,0,0.0,496,-649,551,2026-03-17T23:10:27.389051
72,0,0,0.0,474,-587,611,2026-03-17T23:10:28.528235
70,0,0,0.0,511,-585,577,2026-03-17T23:10:29.632871
69,0,0,0.0,501,-642,508,2026-03-17T23:10:30.762292
69,0,0,0.0,508,-595,558,2026-03-17T23:10:31.887474
69,0,0,0.0,493,-592,612,2026-03-17T23:10:33.021616
68,0,0,0.0,501,-566,598,2026-03-17T23:10:34.160102
66,0,0,0.0,492,-582,615,2026-03-17T23:10:35.231755
66,0,0,0.0,490,-583,617,2026-03-17T23:10:36.305488
69,0,0,0.0,485,-588,616,2026-03-17T23:10:37.434107
70,0,0,0.0,490,-592,618,2026-03-17T23:10:38.545054
70,0,0,0.0,489,-585,616,2026-03-17T23:10:39.670601
69,0,0,0.0,498,-532,619,2026-03-17T23:10:40.814155
69,0,0,0.0,485,-602,613,2026-03-17T23:10:41.926748
67,0,0,0.0,490,-593,615,2026-03-17T23:10:43.038215
67,0,0,0.0,491,-589,616,2026-03-17T23:10:44.174997
67,0,0,0.0,489,-577,602,2026-03-17T23:10:45.316694
69,0,0,0.0,489,-588,615,2026-03-17T23:10:46.436976
69,0,0,0.0,497,-588,611,2026-03-17T23:10:47.556125
70,0,0,0.0,491,-590,603,2026-03-17T23:10:48.696371
70,0,0,0.0,485,-595,615,2026-03-17T23:10:49.806316
69,0,0,0.0,484,-601,607,2026-03-17T23:10:50.953702
69,0,0,0.0,481,-626,609,2026-03-17T23:10:52.060183
67,0,0,0.0,493,-609,613,2026-03-17T23:10:53.145258
66,0,0,0.0,481,-567,642,2026-03-17T23:10:54.219585
67,0,0,0.0,473,-562,645,2026-03-17T23:10:55.340627
69,0,0,0.0,483,-571,640,2026-03-17T23:10:56.468383
71,0,0,0.0,476,-560,647,2026-03-17T23:10:57.589827
71,0,0,0.0,481,-558,643,2026-03-17T23:10:58.714452
70,0,0,0.0,477,-576,639,2026-03-17T23:10:59.861427
69,0,0,0.0,479,-565,641,2026-03-17T23:11:00.976236
68,0,0,0.0,480,-566,639,2026-03-17T23:11:02.106101
67,0,0,0.0,487,-568,644,2026-03-17T23:11:03.230324
67,0,0,0.0,479,-570,649,2026-03-17T23:11:04.352271
66,0,0,0.0,466,-579,642,2026-03-17T23:11:05.433036
64,0,0,0.0,455,-574,641,2026-03-17T23:11:06.602821
65,0,0,0.0,463,-577,641,2026-03-17T23:11:07.730843
64,0,0,0.0,463,-587,652,2026-03-17T23:11:08.86911
64,0,0,0.0,457,-582,646,2026-03-17T23:11:09.974443
63,0,0,0.0,458,-582,636,2026-03-17T23:11:11.122305
62,0,0,0.0,465,-581,639,2026-03-17T23:11:12.237983
62,0,0,0.0,464,-575,648,2026-03-17T23:11:13.362022
62,0,0,0.0,466,-583,640,2026-03-17T23:11:14.491808
61,0,0,0.0,477,-579,605,2026-03-17T23:11:15.629213
63,0,0,0.0,458,-508,634,2026-03-17T23:11:16.740751
63,0,0,0.0,470,-588,623,2026-03-17T23:11:17.864753
63,0,0,0.0,483,-577,578,2026-03-17T23:11:18.995517
65,0,0,0.0,469,-594,622,2026-03-17T23:11:20.125076
65,0,0,0.0,478,-588,625,2026-03-17T23:11:21.243969
65,0,0,0.0,473,-588,634,2026-03-17T23:11:22.358388
68,0,0,0.0,477,-587,622,2026-03-17T23:11:23.512189
68,0,0,0.0,470,-592,626,2026-03-17T23:11:24.566446
67,0,0,0.0,472,-612,620,2026-03-17T23:11:25.654362
66,0,0,0.0,472,-577,622,2026-03-17T23:11:26.781753
65,0,0,0.0,467,-596,628,2026-03-17T23:11:27.860888
67,0,0,0.0,467,-588,634,2026-03-17T23:11:28.917543
67,0,0,0.0,475,-610,639,2026-03-17T23:11:29.976211
66,0,0,0.0,466,-567,640,2026-03-17T23:11:31.081822
67,0,0,0.0,473,-574,640,2026-03-17T23:11:32.20188
68,0,0,0.0,466,-570,642,2026-03-17T23:11:33.332721
69,0,0,0.0,471,-585,636,2026-03-17T23:11:34.461519
68,0,0,0.0,461,-571,643,2026-03-17T23:11:35.586756
67,0,0,0.0,469,-577,639,2026-03-17T23:11:36.704812
65,0,0,0.0,449,-577,656,2026-03-17T23:11:37.830646
64,0,0,0.0,467,-554,652,2026-03-17T23:11:38.966276
64,0,0,0.0,462,-569,643,2026-03-17T23:11:40.085335
64,0,0,0.0,472,-563,649,2026-03-17T23:11:41.213228
63,0,0,0.0,473,-591,651,2026-03-17T23:11:42.342916
62,0,0,0.0,489,-554,638,2026-03-17T23:11:43.467016
61,0,0,0.0,467,-505,711,2026-03-17T23:11:44.530818
61,0,0,0.0,471,-565,658,2026-03-17T23:11:45.61442
60,0,0,0.0,470,-532,664,2026-03-17T23:11:46.757737
59,0,0,0.0,468,-567,649,2026-03-17T23:11:47.874113
60,0,0,0.0,473,-572,645,2026-03-17T23:11:48.942138
61,0,0,0.0,472,-569,651,2026-03-17T23:11:50.023746
61,0,0,0.0,471,-467,732,2026-03-17T23:11:51.085107
60,0,0,0.0,470,-437,740,2026-03-17T23:11:52.177867
58,0,0,0.0,480,-491,698,2026-03-17T23:11:53.26147
60,0,0,0.0,478,-521,674,2026-03-17T23:11:54.338647
60,0,0,0.0,473,-533,675,2026-03-17T23:11:55.451439
60,0,0,0.0,479,-533,674,2026-03-17T23:11:56.583361
61,0,0,0.0,482,-525,673,2026-03-17T23:11:57.7181
62,0,0,0.0,486,-535,669,2026-03-17T23:11:58.831048
62,0,0,0.0,474,-526,668,2026-03-17T23:11:59.95757
62,0,0,0.0,479,-519,665,2026-03-17T23:12:01.090658
62,0,0,0.0,479,-528,663,2026-03-17T23:12:02.213673
62,0,0,0.0,473,-525,671,2026-03-17T23:12:03.338124
62,0,0,0.0,483,-520,665,2026-03-17T23:12:04.459475
62,0,0,0.0,478,-514,673,2026-03-17T23:12:05.590895
61,0,0,0.0,469,-523,678,2026-03-17T23:12:06.718672
61,0,0,0.0,479,-528,681,2026-03-17T23:12:07.837465
62,0,0,0.0,472,-530,678,2026-03-17T23:12:08.988234
62,0,0,0.0,486,-538,678,2026-03-17T23:12:10.089839
62,0,0,0.0,474,-535,671,2026-03-17T23:12:11.224298
62,0,0,0.0,482,-529,681,2026-03-17T23:12:12.342682
63,0,0,0.0,472,-537,668,2026-03-17T23:12:13.490047
63,0,0,0.0,476,-547,673,2026-03-17T23:12:14.598138
63,0,0,0.0,472,-514,674,2026-03-17T23:12:15.729599
63,0,0,0.0,456,-463,756,2026-03-17T23:12:16.858287
62,0,0,0.0,475,-523,675,2026-03-17T23:12:17.989083
62,0,0,0.0,485,-493,712,2026-03-17T23:12:19.106942
62,0,0,0.0,475,-497,695,2026-03-17T23:12:20.244397
64,0,0,0.0,476,-505,687,2026-03-17T23:12:21.359787
63,0,0,0.0,473,-495,694,2026-03-17T23:12:22.487704
62,0,0,0.0,488,-537,663,2026-03-17T23:12:23.611423
63,0,0,0.0,475,-531,703,2026-03-17T23:12:24.732958
64,0,0,0.0,493,-517,678,2026-03-17T23:12:25.867517
65,0,0,0.0,489,-545,646,2026-03-17T23:12:26.989704
65,0,0,0.0,492,-554,641,2026-03-17T23:12:28.109592
67,0,0,0.0,490,-562,675,2026-03-17T23:12:29.245967
68,0,0,0.0,489,-558,639,2026-03-17T23:12:30.372083
69,0,0,0.0,485,-543,636,2026-03-17T23:12:31.489093
70,0,0,0.0,485,-559,638,2026-03-17T23:12:32.620021
71,0,0,0.0,499,-527,650,2026-03-17T23:12:33.746479
71,0,0,0.0,493,-531,654,2026-03-17T23:12:34.87555
70,0,0,0.0,492,-551,654,2026-03-17T23:12:36.006611
69,0,0,0.0,483,-475,697,2026-03-17T23:12:37.123481
67,0,0,0.0,527,-584,655,2026-03-17T23:12:38.252621
66,0,0,0.0,263,-236,892,2026-03-17T23:12:39.377085
66,0,0,0.0,338,-240,761,2026-03-17T23:12:40.497101
66,0,0,0.0,615,-390,354,2026-03-17T23:12:41.641266
66,1001,0,0.0,-236,534,779,2026-03-17T23:15:31.311586
69,1002,0,0.0,-223,505,776,2026-03-17T23:15:32.586884
69,997,0,0.0,-158,526,815,2026-03-17T23:15:33.783696
69,1005,0,0.0,327,-200,829,2026-03-17T23:15:34.913123
68,1003,0,0.0,250,-420,860,2026-03-17T23:15:36.036347
69,1006,0,0.0,829,-812,-114,2026-03-17T23:15:37.154071
69,994,0,0.0,831,-506,-30,2026-03-17T23:15:38.215326
69,995,0,0.0,830,-557,-21,2026-03-17T23:15:39.321511
69,1003,0,0.0,825,-554,-23,2026-03-17T23:15:40.426828
68,1003,0,0.0,830,-562,-28,2026-03-17T23:15:41.563545
67,1002,0,0.0,819,-555,-33,2026-03-17T23:15:42.681266
66,998,0,0.0,817,-555,-35,2026-03-17T23:15:43.807292
66,998,0,0.0,833,-536,123,2026-03-17T23:15:44.937846
67,999,0,0.0,826,-511,150,2026-03-17T23:15:46.03462
68,1004,0,0.0,837,-496,184,2026-03-17T23:15:47.187083
70,1003,0,0.0,845,-497,189,2026-03-17T23:15:48.315474
70,997,0,0.0,488,-329,751,2026-03-17T23:15:49.43854
73,999,0,0.0,427,-370,831,2026-03-17T23:15:50.598949
75,1003,0,0.0,414,-391,800,2026-03-17T23:15:51.670437
77,1001,0,0.0,407,-395,799,2026-03-17T23:15:52.826406
78,997,0,0.0,411,-390,793,2026-03-17T23:15:53.941299
75,969,0,0.0,404,-405,790,2026-03-17T23:15:55.082407
74,995,0,0.0,395,-406,792,2026-03-17T23:15:56.199739
72,1004,0,0.0,376,-424,802,2026-03-17T23:15:57.323371
71,997,0,0.0,361,-403,803,2026-03-17T23:15:58.451733
70,1004,0,0.0,411,-412,782,2026-03-17T23:15:59.573098
69,999,0,0.0,396,-412,796,2026-03-17T23:16:00.700688
67,993,0,0.0,394,-416,783,2026-03-17T23:16:01.777247
66,1001,0,0.0,408,-412,786,2026-03-17T23:16:02.846001
64,1002,0,0.0,380,-409,792,2026-03-17T23:16:03.989815
63,1001,0,0.0,402,-336,805,2026-03-17T23:16:05.099082
64,998,0,0.0,385,-353,821,2026-03-17T23:16:06.232741
65,1006,0,0.0,377,-390,805,2026-03-17T23:16:07.360405
64,1000,0,0.0,377,-404,806,2026-03-17T23:16:08.482633
63,1002,0,0.0,393,-389,804,2026-03-17T23:16:09.615217
62,1002,0,0.0,389,-355,818,2026-03-17T23:16:10.712077
70,994,0,0.0,356,-309,848,2026-03-17T23:18:02.649451
73,997,0,0.0,-345,-455,776,2026-03-17T23:18:11.191206
74,1002,0,0.0,-342,-420,788,2026-03-17T23:18:12.286127
73,999,0,0.0,-362,-455,785,2026-03-17T23:18:13.414987
72,1000,0,0.0,-356,-458,774,2026-03-17T23:18:14.534635
70,997,0,0.0,-367,-469,774,2026-03-17T23:18:15.668178
69,1000,0,0.0,-389,-417,769,2026-03-17T23:18:16.796588
69,995,0,0.0,-327,-458,804,2026-03-17T23:18:17.921677
67,1008,0,0.0,-359,-532,709,2026-03-17T23:18:19.059592
66,1000,0,0.0,-308,-587,693,2026-03-17T23:18:20.17421
66,1002,0,0.0,-358,-499,773,2026-03-17T23:18:21.300128
65,998,0,0.0,-360,-577,680,2026-03-17T23:18:22.436234
64,999,0,0.0,-344,-452,788,2026-03-17T23:18:23.543694
64,1000,0,0.0,-350,-503,780,2026-03-17T23:18:24.678781
63,999,0,0.0,-319,-596,685,2026-03-17T23:18:25.754612
63,1006,0,0.0,-343,-534,758,2026-03-17T23:18:26.815681
63,996,0,0.0,-346,-522,734,2026-03-17T23:18:27.917176
64,1037,0,0.0,-352,-525,733,2026-03-17T23:18:28.993815
65,963,0,0.0,-351,-582,684,2026-03-17T23:18:30.110785
65,994,0,0.0,-343,-593,670,2026-03-17T23:18:31.186125
65,1000,0,0.0,-329,-597,676,2026-03-17T23:18:32.270857
64,1005,0,0.0,-324,-570,728,2026-03-17T23:18:33.383216
64,993,0,0.0,-342,-553,755,2026-03-17T23:18:34.498629
65,1002,0,0.0,-384,-495,747,2026-03-17T23:18:35.637412
65,1003,0,0.0,-359,-464,766,2026-03-17T23:18:36.760037
65,995,0,0.0,-332,-558,726,2026-03-17T23:18:37.900669
64,1008,0,0.0,-338,-631,661,2026-03-17T23:18:39.02136
66,995,0,0.0,508,-316,241,2026-03-17T23:18:40.138065
67,1004,0,0.0,230,-333,909,2026-03-17T23:18:41.274607
